<Bundle xmlns="http://hl7.org/fhir">
    <!--  bericht ID TODO uitzoeken welke  -->
    <id value="nl-vaccinationBundle-01" />
    <meta>
        <profile value="http://vzvz.nl/fhir/StructureDefinition/VaccinationBundle" />
    </meta>
    <type value="transaction" />
    <!--  datumtijd van bericht staat ook in HL7v3 wrapper  -->
    <timestamp value="2022-02-28T16:07:25+01:00" />
    <entry>
        <resource>
            <Immunization>
                <id value="nl-core-Vaccination-event-01" />
                <meta>
                    <profile value="http://nictiz.nl/fhir/StructureDefinition/nl-core-Vaccination-event" />
                </meta>
                <!--  FarmaceutischProduct  -->
                <extension url="http://nictiz.nl/fhir/StructureDefinition/ext-Vaccination.PharmaceuticalProduct">
                    <valueReference>
                        <reference value="Medication/nl-core-pharmaceuticalProduct-01" />
                        <display value="Hepatitis A-vaccin" />
                    </valueReference>
                </extension>
                <!--  StatusToediening  -->
                <status value="completed" />
                <!--  VaccineCode reflects the ProductCode in the PharmaceuticalProduct reference  -->
                <vaccineCode>
                    <coding>
                        <system value="http://www.whocc.no/atc" />
                        <code value="J07BC02" />
                        <display value="HEPATITIS A, GEINACTIVEERD, INTACT VIRUS" />
                    </coding>
                </vaccineCode>
                <!--  Referentie Patient  -->
                <patient>
                    <reference value="Patient/nl-core-Patient-01" />
                    <type value="Patient" />
                    <display value="Johanna Petronella Maria (Jo) van Putten-van der Giessen" />
                </patient>
                <!--  VaccinatieDatumTijd  -->
                <occurrenceDateTime value="2012-06-03" />
                <!--  AnatomischeLocatie  -->
                <site>
                    <coding>
                        <system value="http://snomed.info/sct" />
                        <code value="59126009" />
                        <display value="gehele rechter bovenarm" />
                    </coding>
                </site>
                <!--  Toedieningsweg  -->
                <route>
                    <coding>
                        <system value="urn:oid:2.16.840.1.113883.2.4.3.11.60.40.2.9.13.2" />
                        <code value="2" />
                        <display value="INTRAMUSCULAIR" />
                    </coding>
                </route>
                <!--  Dosis  -->
                <doseQuantity>
                    <value value="10" />
                    <unit value="milliliter" />
                    <system value="http://unitsofmeasure.org" />
                    <code value="mL" />
                </doseQuantity>
                <!--  Toediener::Zorgverlener  -->
                <performer>
                    <function>
                        <coding>
                            <system value="http://terminology.hl7.org/CodeSystem/v2-0443" />
                            <code value="AP" />
                            <display value="Administering Provider" />
                        </coding>
                    </function>
                    <actor>
                        <reference value="Organization/nl-core-organization-01" />
                        <display value="Erasmus Universitair Medisch Centrum" />
                    </actor>
                </performer>
                <!--  Toelichting  -->
                <note>
                    <text value="Bezoek aan Guatemala." />
                </note>
                <!--  VaccinatieIntentie  -->
                <reasonCode>
                    <!--  reasonCode:vaccinationIndication  -->
                    <coding>
                        <system value="http://snomed.info/sct" />
                        <code value="238131007" />
                        <display value="Overgewicht (bevinding)" />
                    </coding>
                </reasonCode>
                <!--  VaccinatieAanleiding  -->
                <reasonCode>
                    <!--  reasonCode:vaccinationMotive  -->
                    <coding>
                        <system value="http://snomed.info/sct" />
                        <code value="159731000146104" />
                        <display value="Immunisatie nodig vanuit rijksvaccinatieprogramma (situatie)" />
                    </coding>
                </reasonCode>
                <reasonCode>
                    <!--  reasonCode:vaccinationMotive  -->
                    <coding>
                        <system value="http://snomed.info/sct" />
                        <code value="33879002" />
                        <display value="Vaccinatie (verrichting)" />
                    </coding>
                </reasonCode>
                <!--  VaccinatieZiekteverwerkker  -->
                <protocolApplied>
                    <targetDisease>
                        <coding>
                            <system value="http://snomed.info/sct" />
                            <code value="128241005" />
                            <display value="hepatitis" />
                        </coding>
                    </targetDisease>
                    <doseNumberString value="1" />
                </protocolApplied>
            </Immunization>
        </resource>
        <request>
            <method value="PUT" />
            <url value="Immunization" />
        </request>
    </entry>
    <entry>
        <resource>
            <Patient>
                <id value="local-patient" />
                <meta>
                    <profile value="http://nictiz.nl/fhir/StructureDefinition/nl-core-Patient" />
                </meta>
                <identifier>
                    <!--  BSN, incl. eventuele voorloopnullen  -->
                    <system value="urn:oid:2.16.840.1.113883.2.4.6.3" />
                    <value value="012345678" />
                    <!--  COA zorgnummer
                    <system value="urn:oid:2.16.840.1.113883.2.4.3.111.6"/> 
                    <value value="1234567890"/>
                     -->
                </identifier>
                <name>
                    <extension url="http://hl7.org/fhir/StructureDefinition/humanname-assembly-order">
                        <valueCode value="NL3" />
                    </extension>
                    <text value="Johanna Petronella Maria van Putten-van der Giessen" />
                    <family value="van Clinteren-van de Put">
                        <extension url="http://hl7.org/fhir/StructureDefinition/humanname-own-prefix">
                            <valueString value="van" />
                        </extension>
                        <extension url="http://hl7.org/fhir/StructureDefinition/humanname-own-name">
                            <valueString value="Putten" />
                        </extension>
                        <extension url="http://hl7.org/fhir/StructureDefinition/humanname-partner-prefix">
                            <valueString value="van der" />
                        </extension>
                        <extension url="http://hl7.org/fhir/StructureDefinition/humanname-partner-name">
                            <valueString value="Giessen" />
                        </extension>
                    </family>
                    <given value="Johanna Petronella">
                        <extension url="http://hl7.org/fhir/StructureDefinition/iso21090-EN-qualifier">
                            <valueCode value="BR" />
                        </extension>
                    </given>
                    <given value="J.P.M.">
                        <extension url="http://hl7.org/fhir/StructureDefinition/iso21090-EN-qualifier">
                            <valueCode value="IN" />
                        </extension>
                    </given>
                    <given value="Ja">
                        <extension url="http://hl7.org/fhir/StructureDefinition/iso21090-EN-qualifier">
                            <valueCode value="CL" />
                        </extension>
                    </given>
                </name>
                <!--  geboortedatum  YYYY-MM-DD voorbeeld toegevoegd  -->
                <birthDate value="1934-04-28" />
                <telecom>
                    <system value="phone">
                        <extension url="http://nictiz.nl/fhir/StructureDefinition/zib-ContactInformation-TelecomType">
                            <valueCodeableConcept>
                                <coding>
                                    <system value="http://hl7.org/fhir/v3/AddressUse" />
                                    <code value="MC" />
                                    <display value="Mobiel telefoonnummer" />
                                </coding>
                            </valueCodeableConcept>
                        </extension>
                    </system>
                    <value value="+31611234567" />
                    <use value="home" />
                </telecom>
                <telecom>
                    <system value="email" />
                    <value value="giesput@myweb.nl" />
                    <use value="home" />
                </telecom>
                <address>
                    <extension url="http://nictiz.nl/fhir/StructureDefinition/zib-AddressInformation-AddressType">
                        <valueCodeableConcept>
                            <coding>
                                <system value="http://hl7.org/fhir/v3/AddressUse" />
                                <code value="PHYS" />
                                <display value="Officieel adres" />
                            </coding>
                        </valueCodeableConcept>
                    </extension>
                    <extension url="http://fhir.nl/fhir/StructureDefinition/nl-core-address-official">
                        <valueBoolean value="true" />
                    </extension>
                    <use value="home" />
                    <line value="1e Jacob van Campenstr 15">
                        <extension url="http://hl7.org/fhir/StructureDefinition/iso21090-ADXP-streetName">
                            <valueString value="1e Jacob van Campenstr" />
                        </extension>
                        <extension url="http://hl7.org/fhir/StructureDefinition/iso21090-ADXP-houseNumber">
                            <valueString value="15" />
                        </extension>
                    </line>
                    <city value="Hoogmade" />
                    <district value="Kaag Braasem" />
                    <postalCode value="1012NX" />
                    <country value="NLD">
                        <extension url="http://nictiz.nl/fhir/StructureDefinition/code-specification">
                            <valueCodeableConcept>
                                <coding>
                                    <system value="urn:iso:std:iso:3166" />
                                    <code value="NL" />
                                    <display value="Nederland" />
                                </coding>
                            </valueCodeableConcept>
                        </extension>
                    </country>
                </address>
            </Patient>
        </resource>
        <request>
            <method value="PUT" />
            <url value="Patient" />
        </request>
    </entry>
    <entry>
        <!--  interne referentie voor de organisatie in deze bundle  -->
        <fullUrl value="urn:uuid:local-organization" />
        <resource>
            <Organization>
                <id value="nl-core-organization-01" />
                <meta>
                    <profile value="http://fhir.nl/fhir/StructureDefinition/nl-core-organization" />
                </meta>
                <identifier>
                    <use value="official" />
                    <system value="http://fhir.nl/fhir/NamingSystem/ura" />
                    <value value="06020806 2.16.528.1.1007.3.3" />
                </identifier>
                <active value="true" />
                <type>
                    <coding>
                        <system value="http://nictiz.nl/fhir/NamingSystem/organization-type" />
                        <code value="V6" />
                        <display value="Algemeen ziekenhuis" />
                    </coding>
                </type>
                <type>
                    <coding>
                        <system value="urn:oid:2.16.840.1.113883.2.4.6.7" />
                        <code value="3200" />
                        <display value="GGD's (instellingen)" />
                    </coding>
                </type>
                <name value="GGD Testlocatie 1234" />
                <telecom>
                    <system value="phone">
                        <extension url="http://nictiz.nl/fhir/StructureDefinition/zib-ContactInformation-TelecomType">
                            <valueCodeableConcept>
                                <coding>
                                    <system value="http://hl7.org/fhir/v3/AddressUse" />
                                    <code value="LL" />
                                    <display value="Land Line" />
                                </coding>
                            </valueCodeableConcept>
                        </extension>
                    </system>
                    <value value="+31107040704" />
                    <use value="work" />
                </telecom>
                <telecom>
                    <system value="email" />
                    <value value="info@erasmus.nl" />
                    <use value="work" />
                </telecom>
                <address>
                    <extension url="http://nictiz.nl/fhir/StructureDefinition/zib-AddressInformation-AddressType">
                        <valueCodeableConcept>
                            <coding>
                                <system value="http://hl7.org/fhir/v3/AddressUse" />
                                <code value="WP" />
                                <display value="Werkadres" />
                            </coding>
                        </valueCodeableConcept>
                    </extension>
                    <extension url="http://fhir.nl/fhir/StructureDefinition/nl-core-address-official">
                        <valueBoolean value="true" />
                    </extension>
                    <line value="s-Gravendijkwal 230">
                        <extension url="http://hl7.org/fhir/StructureDefinition/iso21090-ADXP-streetName">
                            <valueString value="s-Gravendijkwal" />
                        </extension>
                        <extension url="http://hl7.org/fhir/StructureDefinition/iso21090-ADXP-houseNumber">
                            <valueString value="230" />
                        </extension>
                    </line>
                    <city value="Rotterdam" />
                    <postalCode value="3015CE" />
                    <country value="NLD">
                        <extension url="http://nictiz.nl/fhir/StructureDefinition/code-specification">
                            <valueCodeableConcept>
                                <coding>
                                    <system value="urn:iso:std:iso:3166" />
                                    <code value="NL" />
                                    <display value="Nederland" />
                                </coding>
                            </valueCodeableConcept>
                        </extension>
                    </country>
                </address>
            </Organization>
        </resource>
        <request>
            <method value="PUT" />
            <url value="Organization" />
        </request>
    </entry>
    <entry>
        <Medication>
            <id value="nl-core-pharmaceuticalProduct-01"/>
            <meta>
                <profile value="http://nictiz.nl/fhir/StructureDefinition/nl-core-PharmaceuticalProduct"/>
            </meta>
            <code>
                <coding>
                    <system value="http://terminology.hl7.org/CodeSystem/v3-NullFlavor"/>
                    <code value="OTH"/>
                    <display value="Other"/>
                </coding>
                <text value="Hepatitis-A vaccin"/>
            </code>
            <form>
                <system value="urn:oid:2.16.840.1.113883.2.4.4.11"/>
                <code value="21"/>
                <!-- ProductNaam -->
                <display value="SUSPENSIE VOOR INJECTIE"/>
            </form>
            <batch>
                <lotNumber value="123456" />
            </batch>
        </Medication>
    </entry>
</Bundle>